Folder: raman-sc/CRYSTAL/Cyclopentadiene/Modes_21_33_2_0.01

Note: README.md
raman-sc
========

Python scripts to evaluate off-resonance Raman activity using different PBC codes as the back-ends.

File: crystal_raman.dat
# mode    freq(cm-1)    alpha    beta2    activity
21  1101.72   0.2642296   2.04216  17.4369
22  1214.25   0.0000000   0.0000000   0.0000000
23  1281.91   0.0000000   0.0000000   0.0000000
24  1361.18   0.5284594   8.16863  69.7475
25  1380.7   0.6605744   6.75483  66.9199
26  1507.24  -2.37807  23.0921  416.129
27  1592.12   0.0000000   1.88507  13.1955
28  2979.27   1.84961  10.0537  224.323
29  3021.15  -0.2642298  23.2492  165.886
30  3182.02   0.1321149  18.0652  127.242
31  3193.84  -0.0000000   9.42535  65.9775
32  3208.83   0.9248042   1.09962  46.1842
33  3225.31  -1.84961   5.8123  194.633