Folder: raman-sc/CRYSTAL/Cyclopentadiene/Modes_03_10_2_0.01

Note: README.md
raman-sc
========

Python scripts to evaluate off-resonance Raman activity using different PBC codes as the back-ends.

File: crystal_raman.dat
# mode    freq(cm-1)    alpha    beta2    activity
3    24.71850   0.0765734   0.0527714   0.6332562
4    87.12140   0.0000000   0.6728368   4.70986
5    89.13950   0.0000000   0.1978924   1.38525
6    90.30978   0.0000000   0.0000000   0.0000000
7   356.226   0.0000000   0.6332570   4.4328
8   534.314   0.0000000   0.1583137   1.1082
9   664.444   0.0000000   0.0395787   0.2770506
10   695.399   0.0000000   0.0395786   0.2770504