Folder: raman-sc/CRYSTAL/Cyclopentadiene/Modes_11_20_2_0.01

Note: README.md
raman-sc
========

Python scripts to evaluate off-resonance Raman activity using different PBC codes as the back-ends.

File: crystal_raman.dat
# mode    freq(cm-1)    alpha    beta2    activity
11   808.867  -0.0765734   0.0527714   0.6332567
12   811.611  -0.1148601   0.0395785   0.8707277
13   897.168   0.0000000   0.6332555   4.43279
14   912.9   0.0000000   0.5145246   3.60167
15   920.446   0.0000000   0.3562070   2.49345
16   937.775   0.0000000   1.88507  13.1955
17   962.081   0.0000000   1.88507  13.1955
18  1005.79   0.2642298   1.09962  10.8391
19  1074.35   0.0000000   4.2414  29.6898
20  1087.26   0.0000000   1.88507  13.1955