Folder: raman-sc/CRYSTAL/Cyclopentadiene

Note: README.md
raman-sc
========

Python scripts to evaluate off-resonance Raman activity using different PBC codes as the back-ends.

File: crystal_raman.dat
# mode    freq(cm-1)    alpha    beta2    activity
3    24.71850   0.0765734   0.0527714   0.6332562
4    87.12140   0.0000000   0.6728368   4.70986
5    89.13950   0.0000000   0.1978924   1.38525
6    90.30978   0.0000000   0.0000000   0.0000000
7   356.226   0.0000000   0.6332570   4.4328
8   534.314   0.0000000   0.1583137   1.1082
9   664.444   0.0000000   0.0395787   0.2770506
10   695.399   0.0000000   0.0395786   0.2770504
11   808.867  -0.0765734   0.0527714   0.6332567
12   811.611  -0.1148601   0.0395785   0.8707277
13   897.168   0.0000000   0.6332555   4.43279
14   912.9   0.0000000   0.5145246   3.60167
15   920.446   0.0000000   0.3562070   2.49345
16   937.775   0.0000000   1.88507  13.1955
17   962.081   0.0000000   1.88507  13.1955
18  1005.79   0.2642298   1.09962  10.8391
19  1074.35   0.0000000   4.2414  29.6898
20  1087.26   0.0000000   1.88507  13.1955
21  1101.72   0.2642296   2.04216  17.4369
22  1214.25   0.0000000   0.0000000   0.0000000
23  1281.91   0.0000000   0.0000000   0.0000000
24  1361.18   0.5284594   8.16863  69.7475
25  1380.7   0.6605744   6.75483  66.9199
26  1507.24  -2.37807  23.0921  416.129
27  1592.12   0.0000000   1.88507  13.1955
28  2979.27   1.84961  10.0537  224.323
29  3021.15  -0.2642298  23.2492  165.886
30  3182.02   0.1321149  18.0652  127.242
31  3193.84  -0.0000000   9.42535  65.9775
32  3208.83   0.9248042   1.09962  46.1842
33  3225.31  -1.84961   5.8123  194.633

File: crystal_raman.dat-broaden.dat
# freq/cm-1  Intensity
-5.75282e+02   2.99349e-06
-5.60282e+02   3.04247e-06
-5.45282e+02   3.09304e-06
-5.30282e+02   3.14530e-06
-5.15282e+02   3.19936e-06
-5.00282e+02   3.25533e-06
-4.85282e+02   3.31335e-06
-4.70282e+02   3.37355e-06
-4.55282e+02   3.43611e-06
-4.40282e+02   3.50120e-06
-4.25282e+02   3.56902e-06
-4.10282e+02   3.63981e-06
-3.95282e+02   3.71384e-06
-3.80282e+02   3.79139e-06
-3.65282e+02   3.87283e-06
-3.50282e+02   3.95854e-06
-3.35282e+02   4.04900e-06
-3.20282e+02   4.14476e-06
-3.05282e+02   4.24647e-06
-2.90282e+02   4.35489e-06
-2.75282e+02   4.47096e-06
-2.60282e+02   4.59581e-06
-2.45282e+02   4.73081e-06
-2.30282e+02   4.87770e-06
-2.15282e+02   5.03861e-06
-2.00282e+02   5.21628e-06
-1.85282e+02   5.41425e-06
-1.70282e+02   5.63715e-06
-1.55282e+02   5.89117e-06
-1.40282e+02   6.18478e-06
-1.25282e+02   6.52982e-06
-1.10282e+02   6.94340e-06
-9.52815e+01   7.45108e-06
-8.02815e+01   8.09280e-06
-6.52815e+01   8.93462e-06
-5.02815e+01   1.00942e-05
-3.52815e+01   1.18042e-05
-2.02815e+01   1.45967e-05
-5.28150e+00   1.99707e-05
9.71850e+00   3.30246e-05
2.47185e+01   5.49509e-05
3.97185e+01   5.00352e-05
5.47185e+01   6.63636e-05
6.97185e+01   1.38433e-04
8.47185e+01   3.07702e-04
9.97185e+01   1.96121e-04
1.14718e+02   8.08238e-05
1.29718e+02   4.30036e-05
1.44718e+02   2.82183e-05
1.59718e+02   2.12929e-05
1.74718e+02   1.76751e-05
1.89718e+02   1.57017e-05
2.04718e+02   1.46742e-05
2.19718e+02   1.42811e-05
2.34718e+02   1.44017e-05
2.49718e+02   1.50432e-05
2.64718e+02   1.63509e-05
2.79718e+02   1.87039e-05
2.94718e+02   2.30122e-05
3.09718e+02   3.16785e-05
3.24718e+02   5.22631e-05
3.39718e+02   1.12901e-04
3.54718e+02   2.34678e-04
3.69718e+02   1.36110e-04
3.84718e+02   6.05429e-05
3.99718e+02   3.59132e-05
4.14718e+02   2.63108e-05
4.29718e+02   2.19955e-05
4.44718e+02   2.00340e-05
4.59718e+02   1.94259e-05
4.74718e+02   1.99483e-05
4.89718e+02   2.20581e-05
5.04718e+02   2.78560e-05
5.19718e+02   4.55188e-05
5.34718e+02   7.33039e-05
5.49718e+02   4.48211e-05
5.64718e+02   2.90060e-05
5.79718e+02   2.42937e-05
5.94718e+02   2.30138e-05
6.09718e+02   2.32019e-05
6.24718e+02   2.44986e-05
6.39718e+02   2.76035e-05
6.54718e+02   3.55062e-05
6.69718e+02   4.13401e-05
6.84718e+02   4.11507e-05
6.99718e+02   4.39511e-05
7.14718e+02   3.76330e-05
7.29718e+02   3.72058e-05
7.44718e+02   3.99637e-05
7.59718e+02   4.51801e-05
7.74718e+02   5.44865e-05
7.89718e+02   7.47090e-05
8.04718e+02   1.22012e-04
8.19718e+02   1.20838e-04
8.34718e+02   1.01269e-04
8.49718e+02   1.13605e-04
8.64718e+02   1.53868e-04
8.79718e+02   2.55174e-04
8.94718e+02   4.85316e-04
9.09718e+02   6.54496e-04
9.24718e+02   8.30298e-04
9.39718e+02   1.07451e-03
9.54718e+02   1.00702e-03
9.69718e+02   8.51862e-04
9.84718e+02   5.75400e-04
9.99718e+02   7.48987e-04
1.01472e+03   6.72782e-04
1.02972e+03   4.84365e-04
1.04472e+03   5.93694e-04
1.05972e+03   1.14444e-03
1.07472e+03   2.21471e-03
1.08972e+03   2.02311e-03
1.10472e+03   1.52101e-03
1.11972e+03   7.14858e-04
1.13472e+03   3.86149e-04
1.14972e+03   2.62171e-04
1.16472e+03   2.07240e-04
1.17972e+03   1.81756e-04
1.19472e+03   1.71912e-04
1.20972e+03   1.72330e-04
1.22472e+03   1.81148e-04
1.23972e+03   1.98519e-04
1.25472e+03   2.26402e-04
1.26972e+03   2.69293e-04
1.28472e+03   3.36469e-04
1.29972e+03   4.48133e-04
1.31472e+03   6.54095e-04
1.32972e+03   1.10203e-03
1.34472e+03   2.31762e-03
1.35972e+03   4.91322e-03
1.37472e+03   5.19052e-03
1.38972e+03   3.63461e-03
1.40472e+03   1.79715e-03
1.41972e+03   1.28151e-03
1.43472e+03   1.27474e-03
1.44972e+03   1.62292e-03
1.46472e+03   2.54704e-03
1.47972e+03   5.01516e-03
1.49472e+03   1.26354e-02
1.50972e+03   2.07684e-02
1.52472e+03   9.10645e-03
1.53972e+03   3.84523e-03
1.55472e+03   2.07414e-03
1.56972e+03   1.41295e-03
1.58472e+03   1.35041e-03
1.59972e+03   1.11774e-03
1.61472e+03   6.45771e-04
1.62972e+03   4.37432e-04
1.64472e+03   3.29128e-04
1.65972e+03   2.61655e-04
1.67472e+03   2.15170e-04
1.68972e+03   1.81170e-04
1.70472e+03   1.55296e-04
1.71972e+03   1.35037e-04
1.73472e+03   1.18821e-04
1.74972e+03   1.05613e-04
1.76472e+03   9.46970e-05
1.77972e+03   8.55653e-05
1.79472e+03   7.78463e-05
1.80972e+03   7.12625e-05
1.82472e+03   6.56028e-05
1.83972e+03   6.07041e-05
1.85472e+03   5.64384e-05
1.86972e+03   5.27044e-05
1.88472e+03   4.94207e-05
1.89972e+03   4.65212e-05
1.91472e+03   4.39522e-05
1.92972e+03   4.16691e-05
1.94472e+03   3.96354e-05
1.95972e+03   3.78201e-05
1.97472e+03   3.61974e-05
1.98972e+03   3.47457e-05
2.00472e+03   3.34463e-05
2.01972e+03   3.22837e-05
2.03472e+03   3.12443e-05
2.04972e+03   3.03166e-05
2.06472e+03   2.94909e-05
2.07972e+03   2.87586e-05
2.09472e+03   2.81124e-05
2.10972e+03   2.75461e-05
2.12472e+03   2.70545e-05
2.13972e+03   2.66328e-05
2.15472e+03   2.62773e-05
2.16972e+03   2.59849e-05
2.18472e+03   2.57527e-05
2.19972e+03   2.55787e-05
2.21472e+03   2.54613e-05
2.22972e+03   2.53993e-05
2.24472e+03   2.53918e-05
2.25972e+03   2.54385e-05
2.27472e+03   2.55396e-05
2.28972e+03   2.56953e-05
2.30472e+03   2.59067e-05
2.31972e+03   2.61750e-05
2.33472e+03   2.65020e-05
2.34972e+03   2.68898e-05
2.36472e+03   2.73411e-05
2.37972e+03   2.78594e-05
2.39472e+03   2.84483e-05
2.40972e+03   2.91126e-05
2.42472e+03   2.98575e-05
2.43972e+03   3.06892e-05
2.45472e+03   3.16149e-05
2.46972e+03   3.26429e-05
2.48472e+03   3.37828e-05
2.49972e+03   3.50459e-05
2.51472e+03   3.64450e-05
2.52972e+03   3.79954e-05
2.54472e+03   3.97148e-05
2.55972e+03   4.16239e-05
2.57472e+03   4.37471e-05
2.58972e+03   4.61135e-05
2.60472e+03   4.87576e-05
2.61972e+03   5.17207e-05
2.63472e+03   5.50528e-05
2.64972e+03   5.88146e-05
2.66472e+03   6.30805e-05
2.67972e+03   6.79427e-05
2.69472e+03   7.35163e-05
2.70972e+03   7.99467e-05
2.72472e+03   8.74205e-05
2.73972e+03   9.61793e-05
2.75472e+03   1.06542e-04
2.76972e+03   1.18937e-04
2.78472e+03   1.33950e-04
2.79972e+03   1.52401e-04
2.81472e+03   1.75472e-04
2.82972e+03   2.04914e-04
2.84472e+03   2.43425e-04
2.85972e+03   2.95342e-04
2.87472e+03   3.68028e-04
2.88972e+03   4.74841e-04
2.90472e+03   6.42192e-04
2.91972e+03   9.28510e-04
2.93472e+03   1.48418e-03
2.94972e+03   2.78159e-03
2.96472e+03   6.54360e-03
2.97972e+03   1.25115e-02
2.99472e+03   7.72723e-03
3.00972e+03   7.72063e-03
3.02472e+03   9.28787e-03
3.03972e+03   4.19222e-03
3.05472e+03   2.07148e-03
3.06972e+03   1.32626e-03
3.08472e+03   1.03449e-03
3.09972e+03   9.50179e-04
3.11472e+03   1.01471e-03
3.12972e+03   1.26171e-03
3.14472e+03   1.86353e-03
3.15972e+03   3.43949e-03
3.17472e+03   7.86096e-03
3.18972e+03   1.07850e-02
3.20472e+03   9.91670e-03
3.21972e+03   1.20827e-02
3.23472e+03   8.68579e-03
3.24972e+03   3.60449e-03
3.26472e+03   1.83119e-03
3.27972e+03   1.11027e-03
3.29472e+03   7.51762e-04
3.30972e+03   5.47088e-04
3.32472e+03   4.18610e-04
3.33972e+03   3.32272e-04
3.35472e+03   2.71209e-04
3.36972e+03   2.26277e-04
3.38472e+03   1.92153e-04
3.39972e+03   1.65561e-04
3.41472e+03   1.44391e-04
3.42972e+03   1.27232e-04
3.44472e+03   1.13107e-04
3.45972e+03   1.01325e-04
3.47472e+03   9.13818e-05
3.48972e+03   8.29055e-05
3.50472e+03   7.56137e-05
3.51972e+03   6.92903e-05
3.53472e+03   6.37668e-05
3.54972e+03   5.89105e-05
3.56472e+03   5.46155e-05
3.57972e+03   5.07963e-05
3.59472e+03   4.73836e-05
3.60972e+03   4.43201e-05
3.62472e+03   4.15587e-05
3.63972e+03   3.90600e-05
3.65472e+03   3.67908e-05
3.66972e+03   3.47232e-05
3.68472e+03   3.28335e-05
3.69972e+03   3.11014e-05
3.71472e+03   2.95093e-05
3.72972e+03   2.80423e-05
3.74472e+03   2.66873e-05
3.75972e+03   2.54328e-05
3.77472e+03   2.42690e-05
3.78972e+03   2.31872e-05
3.80472e+03   2.21795e-05
3.81972e+03   2.12393e-05
3.82422e+03   2.09695e-05